File: Thermal_Conductivtiy_CBF.csv
SN,Sample Designation,Cast Density [kg/m3],Water / Cement Ratio,% of Pozzolain,Porosity,Moisture %,Hydration Day,Thermal Conductivity of CBF
1,RF,800,0.69,0,53.5,9.23,60,0.245
2,RF,800,0.69,0,53.5,9.23,60,0.23
3,RF,800,0.69,0,53.5,9.23,60,0.23
4,RF,800,0.69,0,53.5,9.23,60,0.245
5,RF,800,0.69,0,53.5,9.23,60,0.232
6,RF,800,0.69,0,53.5,9.23,60,0.245
7,RF,600,0.69,0,65.77,7.24,60,0.159
8,RF,600,0.69,0,65.77,7.24,60,0.161
9,RF,600,0.69,0,65.77,7.24,60,0.158
10,RF,600,0.69,0,65.77,7.24,60,0.16
11,RF,600,0.69,0,65.77,7.24,60,0.156
12,RF,600,0.69,0,65.77,7.24,60,0.155
13,RF,400,0.69,0,79.6,5.93,60,0.099
14,RF,400,0.69,0,79.6,5.93,60,0.103
15,RF,400,0.69,0,79.6,5.93,60,0.097
16,RF,400,0.69,0,79.6,5.93,60,0.098
17,RF,400,0.69,0,79.6,5.93,60,0.099
18,RF,400,0.69,0,79.6,5.93,60,0.096
19,FA10%,800,0.69,0.1,62.2,9.8,60,0.245
20,FA10%,800,0.69,0.1,62.2,9.8,60,0.234
21,FA10%,800,0.69,0.1,62.2,9.8,60,0.238
22,FA10%,800,0.69,0.1,62.2,9.8,60,0.236
23,FA10%,800,0.69,0.1,62.2,9.8,60,0.239
24,FA10%,800,0.69,0.1,62.2,9.8,60,0.228
25,FA10%,600,0.69,0.1,71.4,8.36,60,0.159
26,FA10%,600,0.69,0.1,71.4,8.36,60,0.164
27,FA10%,600,0.69,0.1,71.4,8.36,60,0.164
28,FA10%,600,0.69,0.1,71.4,8.36,60,0.167
29,FA10%,600,0.69,0.1,71.4,8.36,60,0.161
30,FA10%,600,0.69,0.1,71.4,8.36,60,0.162
31,FA10%,400,0.69,0.1,80,7.06,60,0.106
32,FA10%,400,0.69,0.1,80,7.06,60,0.109
33,FA10%,400,0.69,0.1,80,7.06,60,0.11
34,FA10%,400,0.69,0.1,80,7.06,60,0.107
35,FA10%,400,0.69,0.1,80,7.06,60,0.112
36,FA10%,400,0.69,0.1,80,7.06,60,0.102
37,FA20%,800,0.69,0.2,67.7,9.71,60,0.226
38,FA20%,800,0.69,0.2,67.7,9.71,60,0.221
39,FA20%,800,0.69,0.2,67.7,9.71,60,0.224
40,FA20%,800,0.69,0.2,67.7,9.71,60,0.225
41,FA20%,800,0.69,0.2,67.7,9.71,60,0.225
42,FA20%,800,0.69,0.2,67.7,9.71,60,0.22
43,FA20%,600,0.69,0.2,73.5,8.02,60,0.152
44,FA20%,600,0.69,0.2,73.5,8.02,60,0.146
45,FA20%,600,0.69,0.2,73.5,8.02,60,0.154
46,FA20%,600,0.69,0.2,73.5,8.02,60,0.154
47,FA20%,600,0.69,0.2,73.5,8.02,60,0.153
48,FA20%,600,0.69,0.2,73.5,8.02,60,0.152
49,FA20%,400,0.69,0.2,82.2,6.21,60,0.09
50,FA20%,400,0.69,0.2,82.2,6.21,60,0.09
51,FA20%,400,0.69,0.2,82.2,6.21,60,0.085
52,FA20%,400,0.69,0.2,82.2,6.21,60,0.09
53,FA20%,400,0.69,0.2,82.2,6.21,60,0.083
54,FA20%,400,0.69,0.2,82.2,6.21,60,0.09
55,SF10%,800,0.69,0.1,66.19,11.26,60,0.213
56,SF10%,800,0.69,0.1,66.19,11.26,60,0.216
57,SF10%,800,0.69,0.1,66.19,11.26,60,0.221
58,SF10%,800,0.69,0.1,66.19,11.26,60,0.218
59,SF10%,800,0.69,0.1,66.19,11.26,60,0.227
60,SF10%,800,0.69,0.1,66.19,11.26,60,0.213
61,SF10%,600,0.69,0.1,74.53,9.48,60,0.143
62,SF10%,600,0.69,0.1,74.53,9.48,60,0.143
63,SF10%,600,0.69,0.1,74.53,9.48,60,0.143
64,SF10%,600,0.69,0.1,74.53,9.48,60,0.137
65,SF10%,600,0.69,0.1,74.53,9.48,60,0.139
66,SF10%,600,0.69,0.1,74.53,9.48,60,0.138
67,SF10%,400,0.69,0.1,84.1,8.2,60,0.098
68,SF10%,400,0.69,0.1,84.1,8.2,60,0.097
69,SF10%,400,0.69,0.1,84.1,8.2,60,0.1
70,SF10%,400,0.69,0.1,84.1,8.2,60,0.094
71,SF10%,400,0.69,0.1,84.1,8.2,60,0.096
72,SF10%,400,0.69,0.1,84.1,8.2,60,0.096
73,SF20%,800,0.69,0.2,55.2,9.75,60,0.193
74,SF20%,800,0.69,0.2,55.2,9.75,60,0.212
75,SF20%,800,0.69,0.2,55.2,9.75,60,0.202
76,SF20%,800,0.69,0.2,55.2,9.75,60,0.206
77,SF20%,800,0.69,0.2,55.2,9.75,60,0.205
78,SF20%,800,0.69,0.2,55.2,9.75,60,0.203
79,SF20%,600,0.69,0.2,69.14,5.5,60,0.121
80,SF20%,600,0.69,0.2,69.14,5.5,60,0.126
81,SF20%,600,0.69,0.2,69.14,5.5,60,0.128
82,SF20%,600,0.69,0.2,69.14,5.5,60,0.121
83,SF20%,600,0.69,0.2,69.14,5.5,60,0.126
84,SF20%,600,0.69,0.2,69.14,5.5,60,0.12
85,SF20%,400,0.69,0.2,77.42,3.95,60,0.092
86,SF20%,400,0.69,0.2,77.42,3.95,60,0.091
87,SF20%,400,0.69,0.2,77.42,3.95,60,0.088
88,SF20%,400,0.69,0.2,77.42,3.95,60,0.088
89,SF20%,400,0.69,0.2,77.42,3.95,60,0.089
90,SF20%,400,0.69,0.2,77.42,3.95,60,0.091
91,MK10%,800,0.69,0.1,62.84,9.79,60,0.239
92,MK10%,800,0.69,0.1,62.84,9.79,60,0.241
93,MK10%,800,0.69,0.1,62.84,9.79,60,0.232
94,MK10%,800,0.69,0.1,62.84,9.79,60,0.233
95,MK10%,800,0.69,0.1,62.84,9.79,60,0.232
96,MK10%,800,0.69,0.1,62.84,9.79,60,0.238
97,MK10%,600,0.69,0.1,71.19,8.79,60,0.154
98,MK10%,600,0.69,0.1,71.19,8.79,60,0.146
99,MK10%,600,0.69,0.1,71.19,8.79,60,0.153
100,MK10%,600,0.69,0.1,71.19,8.79,60,0.15
101,MK10%,600,0.69,0.1,71.19,8.79,60,0.152
102,MK10%,600,0.69,0.1,71.19,8.79,60,0.154
103,MK10%,400,0.69,0.1,80,7.9,60,0.094
104,MK10%,400,0.69,0.1,80,7.9,60,0.099
105,MK10%,400,0.69,0.1,80,7.9,60,0.095
106,MK10%,400,0.69,0.1,80,7.9,60,0.093
107,MK10%,400,0.69,0.1,80,7.9,60,0.096
108,MK10%,400,0.69,0.1,80,7.9,60,0.093
109,MK20%,800,0.69,0.2,64.06,11.97,60,0.262
110,MK20%,800,0.69,0.2,64.06,11.97,60,0.241
111,MK20%,800,0.69,0.2,64.06,11.97,60,0.241
112,MK20%,800,0.69,0.2,64.06,11.97,60,0.265
113,MK20%,800,0.69,0.2,64.06,11.97,60,0.255
114,MK20%,800,0.69,0.2,64.06,11.97,60,0.236
115,MK20%,600,0.69,0.2,73.44,9.54,60,0.157
116,MK20%,600,0.69,0.2,73.44,9.54,60,0.158
117,MK20%,600,0.69,0.2,73.44,9.54,60,0.178
118,MK20%,600,0.69,0.2,73.44,9.54,60,0.176
119,MK20%,600,0.69,0.2,73.44,9.54,60,0.175
120,MK20%,600,0.69,0.2,73.44,9.54,60,0.17
121,MK20%,400,0.69,0.2,83.08,8.2,60,0.096
122,MK20%,400,0.69,0.2,83.08,8.2,60,0.1
123,MK20%,400,0.69,0.2,83.08,8.2,60,0.092
124,MK20%,400,0.69,0.2,83.08,8.2,60,0.097
125,MK20%,400,0.69,0.2,83.08,8.2,60,0.099
126,MK20%,400,0.69,0.2,83.08,8.2,60,0.1
127,RF,800,0.69,0,53.5,8.9,120,0.221
128,RF,800,0.69,0,53.5,8.9,120,0.205
129,RF,800,0.69,0,53.5,8.9,120,0.208
130,RF,800,0.69,0,53.5,8.9,120,0.237
131,RF,800,0.69,0,53.5,8.9,120,0.222
132,RF,800,0.69,0,53.5,8.9,120,0.222
133,RF,600,0.69,0,65.77,6.76,120,0.149
134,RF,600,0.69,0,65.77,6.76,120,0.127
135,RF,600,0.69,0,65.77,6.76,120,0.151
136,RF,600,0.69,0,65.77,6.76,120,0.144
137,RF,600,0.69,0,65.77,6.76,120,0.142
138,RF,600,0.69,0,65.77,6.76,120,0.147
139,RF,400,0.69,0,79.6,5.81,120,0.093
140,RF,400,0.69,0,79.6,5.81,120,0.085
141,RF,400,0.69,0,79.6,5.81,120,0.093
142,RF,400,0.69,0,79.6,5.81,120,0.092
143,RF,400,0.69,0,79.6,5.81,120,0.087
144,RF,400,0.69,0,79.6,5.81,120,0.09
145,FA10%,800,0.69,0.1,62.2,9.49,120,0.227
146,FA10%,800,0.69,0.1,62.2,9.49,120,0.221
147,FA10%,800,0.69,0.1,62.2,9.49,120,0.221
148,FA10%,800,0.69,0.1,62.2,9.49,120,0.209
149,FA10%,800,0.69,0.1,62.2,9.49,120,0.218
150,FA10%,800,0.69,0.1,62.2,9.49,120,0.22
151,FA10%,600,0.69,0.1,71.4,8.15,120,0.156
152,FA10%,600,0.69,0.1,71.4,8.15,120,0.158
153,FA10%,600,0.69,0.1,71.4,8.15,120,0.16
154,FA10%,600,0.69,0.1,71.4,8.15,120,0.158
155,FA10%,600,0.69,0.1,71.4,8.15,120,0.157
156,FA10%,600,0.69,0.1,71.4,8.15,120,0.158
157,FA10%,400,0.69,0.1,80,6.45,120,0.105
158,FA10%,400,0.69,0.1,80,6.45,120,0.101
159,FA10%,400,0.69,0.1,80,6.45,120,0.101
160,FA10%,400,0.69,0.1,80,6.45,120,0.099
161,FA10%,400,0.69,0.1,80,6.45,120,0.104
162,FA10%,400,0.69,0.1,80,6.45,120,0.098
163,FA20%,800,0.69,0.2,67.7,8.97,120,0.215
164,FA20%,800,0.69,0.2,67.7,8.97,120,0.213
165,FA20%,800,0.69,0.2,67.7,8.97,120,0.208
166,FA20%,800,0.69,0.2,67.7,8.97,120,0.228
167,FA20%,800,0.69,0.2,67.7,8.97,120,0.209
168,FA20%,800,0.69,0.2,67.7,8.97,120,0.209
169,FA20%,600,0.69,0.2,73.5,7.08,120,0.143
170,FA20%,600,0.69,0.2,73.5,7.08,120,0.142
171,FA20%,600,0.69,0.2,73.5,7.08,120,0.146
172,FA20%,600,0.69,0.2,73.5,7.08,120,0.147
173,FA20%,600,0.69,0.2,73.5,7.08,120,0.143
174,FA20%,600,0.69,0.2,73.5,7.08,120,0.145
175,FA20%,400,0.69,0.2,82.2,5.93,120,0.075
176,FA20%,400,0.69,0.2,82.2,5.93,120,0.08
177,FA20%,400,0.69,0.2,82.2,5.93,120,0.077
178,FA20%,400,0.69,0.2,82.2,5.93,120,0.08
179,FA20%,400,0.69,0.2,82.2,5.93,120,0.077
180,FA20%,400,0.69,0.2,82.2,5.93,120,0.077
181,SF10%,800,0.69,0.1,66.19,10.9,120,0.181
182,SF10%,800,0.69,0.1,66.19,10.9,120,0.201
183,SF10%,800,0.69,0.1,66.19,10.9,120,0.207
184,SF10%,800,0.69,0.1,66.19,10.9,120,0.194
185,SF10%,800,0.69,0.1,66.19,10.9,120,0.205
186,SF10%,800,0.69,0.1,66.19,10.9,120,0.187
187,SF10%,600,0.69,0.1,74.53,8.57,120,0.136
188,SF10%,600,0.69,0.1,74.53,8.57,120,0.124
189,SF10%,600,0.69,0.1,74.53,8.57,120,0.133
190,SF10%,600,0.69,0.1,74.53,8.57,120,0.123
191,SF10%,600,0.69,0.1,74.53,8.57,120,0.13
192,SF10%,600,0.69,0.1,74.53,8.57,120,0.124
193,SF10%,400,0.69,0.1,84.1,7.19,120,0.088
194,SF10%,400,0.69,0.1,84.1,7.19,120,0.087
195,SF10%,400,0.69,0.1,84.1,7.19,120,0.093
196,SF10%,400,0.69,0.1,84.1,7.19,120,0.089
197,SF10%,400,0.69,0.1,84.1,7.19,120,0.087
198,SF10%,400,0.69,0.1,84.1,7.19,120,0.084
199,SF20%,800,0.69,0.2,55.2,8.95,120,0.184
200,SF20%,800,0.69,0.2,55.2,8.95,120,0.184
201,SF20%,800,0.69,0.2,55.2,8.95,120,0.187
202,SF20%,800,0.69,0.2,55.2,8.95,120,0.192
203,SF20%,800,0.69,0.2,55.2,8.95,120,0.187
204,SF20%,800,0.69,0.2,55.2,8.95,120,0.189
205,SF20%,600,0.69,0.2,69.14,4.04,120,0.115
206,SF20%,600,0.69,0.2,69.14,4.04,120,0.118
207,SF20%,600,0.69,0.2,69.14,4.04,120,0.114
208,SF20%,600,0.69,0.2,69.14,4.04,120,0.117
209,SF20%,600,0.69,0.2,69.14,4.04,120,0.117
210,SF20%,600,0.69,0.2,69.14,4.04,120,0.109
211,SF20%,400,0.69,0.2,77.42,3.57,120,0.079
212,SF20%,400,0.69,0.2,77.42,3.57,120,0.084
213,SF20%,400,0.69,0.2,77.42,3.57,120,0.08
214,SF20%,400,0.69,0.2,77.42,3.57,120,0.08
215,SF20%,400,0.69,0.2,77.42,3.57,120,0.077
216,SF20%,400,0.69,0.2,77.42,3.57,120,0.079
217,MK10%,800,0.69,0.1,62.84,9.15,120,0.221
218,MK10%,800,0.69,0.1,62.84,9.15,120,0.222
219,MK10%,800,0.69,0.1,62.84,9.15,120,0.21
220,MK10%,800,0.69,0.1,62.84,9.15,120,0.2
221,MK10%,800,0.69,0.1,62.84,9.15,120,0.212
222,MK10%,800,0.69,0.1,62.84,9.15,120,0.219
223,MK10%,600,0.69,0.1,71.19,8.04,120,0.139
224,MK10%,600,0.69,0.1,71.19,8.04,120,0.132
225,MK10%,600,0.69,0.1,71.19,8.04,120,0.137
226,MK10%,600,0.69,0.1,71.19,8.04,120,0.137
227,MK10%,600,0.69,0.1,71.19,8.04,120,0.137
228,MK10%,600,0.69,0.1,71.19,8.04,120,0.138
229,MK10%,400,0.69,0.1,80,7.45,120,0.081
230,MK10%,400,0.69,0.1,80,7.45,120,0.085
231,MK10%,400,0.69,0.1,80,7.45,120,0.082
232,MK10%,400,0.69,0.1,80,7.45,120,0.081
233,MK10%,400,0.69,0.1,80,7.45,120,0.087
234,MK10%,400,0.69,0.1,80,7.45,120,0.083
235,MK20%,800,0.69,0.2,64.06,11.4,120,0.226
236,MK20%,800,0.69,0.2,64.06,11.4,120,0.216
237,MK20%,800,0.69,0.2,64.06,11.4,120,0.22
238,MK20%,800,0.69,0.2,64.06,11.4,120,0.224
239,MK20%,800,0.69,0.2,64.06,11.4,120,0.225
240,MK20%,800,0.69,0.2,64.06,11.4,120,0.21
241,MK20%,600,0.69,0.2,73.44,8.81,120,0.134
242,MK20%,600,0.69,0.2,73.44,8.81,120,0.135
243,MK20%,600,0.69,0.2,73.44,8.81,120,0.157
244,MK20%,600,0.69,0.2,73.44,8.81,120,0.138
245,MK20%,600,0.69,0.2,73.44,8.81,120,0.15
246,MK20%,600,0.69,0.2,73.44,8.81,120,0.142
247,MK20%,400,0.69,0.2,83.08,8.04,120,0.082
248,MK20%,400,0.69,0.2,83.08,8.04,120,0.085
249,MK20%,400,0.69,0.2,83.08,8.04,120,0.085
250,MK20%,400,0.69,0.2,83.08,8.04,120,0.084
251,MK20%,400,0.69,0.2,83.08,8.04,120,0.087
252,MK20%,400,0.69,0.2,83.08,8.04,120,0.085
253,RF,800,0.69,0,53.5,3.74,210,0.198
254,RF,800,0.69,0,53.5,3.74,210,0.183
255,RF,800,0.69,0,53.5,3.74,210,0.188
256,RF,800,0.69,0,53.5,3.74,210,0.193
257,RF,800,0.69,0,53.5,3.74,210,0.191
258,RF,800,0.69,0,53.5,3.74,210,0.168
259,RF,600,0.69,0,65.77,3.42,210,0.136
260,RF,600,0.69,0,65.77,3.42,210,0.11
261,RF,600,0.69,0,65.77,3.42,210,0.136
262,RF,600,0.69,0,65.77,3.42,210,0.132
263,RF,600,0.69,0,65.77,3.42,210,0.124
264,RF,600,0.69,0,65.77,3.42,210,0.132
265,RF,400,0.69,0,79.6,3.25,210,0.078
266,RF,400,0.69,0,79.6,3.25,210,0.079
267,RF,400,0.69,0,79.6,3.25,210,0.084
268,RF,400,0.69,0,79.6,3.25,210,0.082
269,RF,400,0.69,0,79.6,3.25,210,0.077
270,RF,400,0.69,0,79.6,3.25,210,0.079
271,FA10%,800,0.69,0.1,62.2,3.96,210,0.189
272,FA10%,800,0.69,0.1,62.2,3.96,210,0.19
273,FA10%,800,0.69,0.1,62.2,3.96,210,0.175
274,FA10%,800,0.69,0.1,62.2,3.96,210,0.163
275,FA10%,800,0.69,0.1,62.2,3.96,210,0.192
276,FA10%,800,0.69,0.1,62.2,3.96,210,0.185
277,FA10%,600,0.69,0.1,71.4,3.24,210,0.137
278,FA10%,600,0.69,0.1,71.4,3.24,210,0.142
279,FA10%,600,0.69,0.1,71.4,3.24,210,0.142
280,FA10%,600,0.69,0.1,71.4,3.24,210,0.143
281,FA10%,600,0.69,0.1,71.4,3.24,210,0.14
282,FA10%,600,0.69,0.1,71.4,3.24,210,0.14
283,FA10%,400,0.69,0.1,80,2.87,210,0.088
284,FA10%,400,0.69,0.1,80,2.87,210,0.089
285,FA10%,400,0.69,0.1,80,2.87,210,0.092
286,FA10%,400,0.69,0.1,80,2.87,210,0.084
287,FA10%,400,0.69,0.1,80,2.87,210,0.087
288,FA10%,400,0.69,0.1,80,2.87,210,0.087
289,FA20%,800,0.69,0.2,67.7,3.5,210,0.184
290,FA20%,800,0.69,0.2,67.7,3.5,210,0.18
291,FA20%,800,0.69,0.2,67.7,3.5,210,0.192
292,FA20%,800,0.69,0.2,67.7,3.5,210,0.184
293,FA20%,800,0.69,0.2,67.7,3.5,210,0.183
294,FA20%,800,0.69,0.2,67.7,3.5,210,0.181
295,FA20%,600,0.69,0.2,73.5,3.17,210,0.129
296,FA20%,600,0.69,0.2,73.5,3.17,210,0.131
297,FA20%,600,0.69,0.2,73.5,3.17,210,0.128
298,FA20%,600,0.69,0.2,73.5,3.17,210,0.132
299,FA20%,600,0.69,0.2,73.5,3.17,210,0.129
300,FA20%,600,0.69,0.2,73.5,3.17,210,0.129
301,FA20%,400,0.69,0.2,82.2,2.64,210,0.076
302,FA20%,400,0.69,0.2,82.2,2.64,210,0.071
303,FA20%,400,0.69,0.2,82.2,2.64,210,0.074
304,FA20%,400,0.69,0.2,82.2,2.64,210,0.078
305,FA20%,400,0.69,0.2,82.2,2.64,210,0.07
306,FA20%,400,0.69,0.2,82.2,2.64,210,0.074
307,SF10%,800,0.69,0.1,66.19,4.2,210,0.166
308,SF10%,800,0.69,0.1,66.19,4.2,210,0.176
309,SF10%,800,0.69,0.1,66.19,4.2,210,0.174
310,SF10%,800,0.69,0.1,66.19,4.2,210,0.173
311,SF10%,800,0.69,0.1,66.19,4.2,210,0.179
312,SF10%,800,0.69,0.1,66.19,4.2,210,0.167
313,SF10%,600,0.69,0.1,74.53,3.23,210,0.117
314,SF10%,600,0.69,0.1,74.53,3.23,210,0.111
315,SF10%,600,0.69,0.1,74.53,3.23,210,0.119
316,SF10%,600,0.69,0.1,74.53,3.23,210,0.115
317,SF10%,600,0.69,0.1,74.53,3.23,210,0.113
318,SF10%,600,0.69,0.1,74.53,3.23,210,0.107
319,SF10%,400,0.69,0.1,84.1,2.92,210,0.077
320,SF10%,400,0.69,0.1,84.1,2.92,210,0.079
321,SF10%,400,0.69,0.1,84.1,2.92,210,0.085
322,SF10%,400,0.69,0.1,84.1,2.92,210,0.079
323,SF10%,400,0.69,0.1,84.1,2.92,210,0.078
324,SF10%,400,0.69,0.1,84.1,2.92,210,0.075
325,SF20%,800,0.69,0.2,55.2,4.17,210,0.16
326,SF20%,800,0.69,0.2,55.2,4.17,210,0.16
327,SF20%,800,0.69,0.2,55.2,4.17,210,0.163
328,SF20%,800,0.69,0.2,55.2,4.17,210,0.166
329,SF20%,800,0.69,0.2,55.2,4.17,210,0.159
330,SF20%,800,0.69,0.2,55.2,4.17,210,0.161
331,SF20%,600,0.69,0.2,69.14,2.9,210,0.101
332,SF20%,600,0.69,0.2,69.14,2.9,210,0.102
333,SF20%,600,0.69,0.2,69.14,2.9,210,0.103
334,SF20%,600,0.69,0.2,69.14,2.9,210,0.103
335,SF20%,600,0.69,0.2,69.14,2.9,210,0.101
336,SF20%,600,0.69,0.2,69.14,2.9,210,0.098
337,SF20%,400,0.69,0.2,77.42,2.51,210,0.07
338,SF20%,400,0.69,0.2,77.42,2.51,210,0.069
339,SF20%,400,0.69,0.2,77.42,2.51,210,0.069
340,SF20%,400,0.69,0.2,77.42,2.51,210,0.072
341,SF20%,400,0.69,0.2,77.42,2.51,210,0.069
342,SF20%,400,0.69,0.2,77.42,2.51,210,0.07
343,MK10%,800,0.69,0.1,62.84,3.99,210,0.184
344,MK10%,800,0.69,0.1,62.84,3.99,210,0.183
345,MK10%,800,0.69,0.1,62.84,3.99,210,0.168
346,MK10%,800,0.69,0.1,62.84,3.99,210,0.176
347,MK10%,800,0.69,0.1,62.84,3.99,210,0.181
348,MK10%,800,0.69,0.1,62.84,3.99,210,0.187
349,MK10%,600,0.69,0.1,71.19,3.6,210,0.116
350,MK10%,600,0.69,0.1,71.19,3.6,210,0.117
351,MK10%,600,0.69,0.1,71.19,3.6,210,0.117
352,MK10%,600,0.69,0.1,71.19,3.6,210,0.127
353,MK10%,600,0.69,0.1,71.19,3.6,210,0.12
354,MK10%,600,0.69,0.1,71.19,3.6,210,0.125
355,MK10%,400,0.69,0.1,80,3.5,210,0.076
356,MK10%,400,0.69,0.1,80,3.5,210,0.07
357,MK10%,400,0.69,0.1,80,3.5,210,0.076
358,MK10%,400,0.69,0.1,80,3.5,210,0.073
359,MK10%,400,0.69,0.1,80,3.5,210,0.075
360,MK10%,400,0.69,0.1,80,3.5,210,0.073
361,MK20%,800,0.69,0.2,64.06,4.06,210,0.179
362,MK20%,800,0.69,0.2,64.06,4.06,210,0.192
363,MK20%,800,0.69,0.2,64.06,4.06,210,0.181
364,MK20%,800,0.69,0.2,64.06,4.06,210,0.175
365,MK20%,800,0.69,0.2,64.06,4.06,210,0.19
366,MK20%,800,0.69,0.2,64.06,4.06,210,0.175
367,MK20%,600,0.69,0.2,73.44,3.86,210,0.118
368,MK20%,600,0.69,0.2,73.44,3.86,210,0.121
369,MK20%,600,0.69,0.2,73.44,3.86,210,0.128
370,MK20%,600,0.69,0.2,73.44,3.86,210,0.124
371,MK20%,600,0.69,0.2,73.44,3.86,210,0.128
372,MK20%,600,0.69,0.2,73.44,3.86,210,0.125
373,MK20%,400,0.69,0.2,83.08,3.6,210,0.078
374,MK20%,400,0.69,0.2,83.08,3.6,210,0.073
375,MK20%,400,0.69,0.2,83.08,3.6,210,0.071
376,MK20%,400,0.69,0.2,83.08,3.6,210,0.078
377,MK20%,400,0.69,0.2,83.08,3.6,210,0.077
378,MK20%,400,0.69,0.2,83.08,3.6,210,0.08
379,RF,800,0.69,0,53.5,3.41,300,0.181
380,RF,800,0.69,0,53.5,3.41,300,0.184
381,RF,800,0.69,0,53.5,3.41,300,0.179
382,RF,800,0.69,0,53.5,3.41,300,0.19
383,RF,800,0.69,0,53.5,3.41,300,0.18
384,RF,800,0.69,0,53.5,3.41,300,0.171
385,RF,600,0.69,0,65.77,3.14,300,0.129
386,RF,600,0.69,0,65.77,3.14,300,0.112
387,RF,600,0.69,0,65.77,3.14,300,0.123
388,RF,600,0.69,0,65.77,3.14,300,0.122
389,RF,600,0.69,0,65.77,3.14,300,0.126
390,RF,600,0.69,0,65.77,3.14,300,0.135
391,RF,400,0.69,0,79.6,2.75,300,0.073
392,RF,400,0.69,0,79.6,2.75,300,0.082
393,RF,400,0.69,0,79.6,2.75,300,0.072
394,RF,400,0.69,0,79.6,2.75,300,0.079
395,RF,400,0.69,0,79.6,2.75,300,0.078
396,RF,400,0.69,0,79.6,2.75,300,0.072
397,FA10%,800,0.69,0.1,62.2,2.21,300,0.186
398,FA10%,800,0.69,0.1,62.2,2.21,300,0.188
399,FA10%,800,0.69,0.1,62.2,2.21,300,0.185
400,FA10%,800,0.69,0.1,62.2,2.21,300,0.176
401,FA10%,800,0.69,0.1,62.2,2.21,300,0.179
402,FA10%,800,0.69,0.1,62.2,2.21,300,0.182
403,FA10%,600,0.69,0.1,71.4,1.92,300,0.137
404,FA10%,600,0.69,0.1,71.4,1.92,300,0.143
405,FA10%,600,0.69,0.1,71.4,1.92,300,0.137
406,FA10%,600,0.69,0.1,71.4,1.92,300,0.128
407,FA10%,600,0.69,0.1,71.4,1.92,300,0.135
408,FA10%,600,0.69,0.1,71.4,1.92,300,0.136
409,FA10%,400,0.69,0.1,80,0.83,300,0.081
410,FA10%,400,0.69,0.1,80,0.83,300,0.08
411,FA10%,400,0.69,0.1,80,0.83,300,0.071
412,FA10%,400,0.69,0.1,80,0.83,300,0.076
413,FA10%,400,0.69,0.1,80,0.83,300,0.089
414,FA10%,400,0.69,0.1,80,0.83,300,0.089
415,FA20%,800,0.69,0.2,67.7,1.99,300,0.186
416,FA20%,800,0.69,0.2,67.7,1.99,300,0.185
417,FA20%,800,0.69,0.2,67.7,1.99,300,0.178
418,FA20%,800,0.69,0.2,67.7,1.99,300,0.175
419,FA20%,800,0.69,0.2,67.7,1.99,300,0.188
420,FA20%,800,0.69,0.2,67.7,1.99,300,0.182
421,FA20%,600,0.69,0.2,73.5,1.61,300,0.122
422,FA20%,600,0.69,0.2,73.5,1.61,300,0.124
423,FA20%,600,0.69,0.2,73.5,1.61,300,0.121
424,FA20%,600,0.69,0.2,73.5,1.61,300,0.122
425,FA20%,600,0.69,0.2,73.5,1.61,300,0.118
426,FA20%,600,0.69,0.2,73.5,1.61,300,0.125
427,FA20%,400,0.69,0.2,82.2,0.89,300,0.073
428,FA20%,400,0.69,0.2,82.2,0.89,300,0.075
429,FA20%,400,0.69,0.2,82.2,0.89,300,0.074
430,FA20%,400,0.69,0.2,82.2,0.89,300,0.076
431,FA20%,400,0.69,0.2,82.2,0.89,300,0.071
432,FA20%,400,0.69,0.2,82.2,0.89,300,0.072
433,SF10%,800,0.69,0.1,66.19,1.54,300,0.169
434,SF10%,800,0.69,0.1,66.19,1.54,300,0.185
435,SF10%,800,0.69,0.1,66.19,1.54,300,0.173
436,SF10%,800,0.69,0.1,66.19,1.54,300,0.171
437,SF10%,800,0.69,0.1,66.19,1.54,300,0.179
438,SF10%,800,0.69,0.1,66.19,1.54,300,0.164
439,SF10%,600,0.69,0.1,74.53,1.39,300,0.117
440,SF10%,600,0.69,0.1,74.53,1.39,300,0.109
441,SF10%,600,0.69,0.1,74.53,1.39,300,0.113
442,SF10%,600,0.69,0.1,74.53,1.39,300,0.115
443,SF10%,600,0.69,0.1,74.53,1.39,300,0.107
444,SF10%,600,0.69,0.1,74.53,1.39,300,0.106
445,SF10%,400,0.69,0.1,84.1,1.09,300,0.078
446,SF10%,400,0.69,0.1,84.1,1.09,300,0.078
447,SF10%,400,0.69,0.1,84.1,1.09,300,0.087
448,SF10%,400,0.69,0.1,84.1,1.09,300,0.08
449,SF10%,400,0.69,0.1,84.1,1.09,300,0.077
450,SF10%,400,0.69,0.1,84.1,1.09,300,0.072
451,SF20%,800,0.69,0.2,55.2,1.38,300,0.162
452,SF20%,800,0.69,0.2,55.2,1.38,300,0.162
453,SF20%,800,0.69,0.2,55.2,1.38,300,0.16
454,SF20%,800,0.69,0.2,55.2,1.38,300,0.176
455,SF20%,800,0.69,0.2,55.2,1.38,300,0.172
456,SF20%,800,0.69,0.2,55.2,1.38,300,0.165
457,SF20%,600,0.69,0.2,69.14,1.17,300,0.101
458,SF20%,600,0.69,0.2,69.14,1.17,300,0.104
459,SF20%,600,0.69,0.2,69.14,1.17,300,0.104
460,SF20%,600,0.69,0.2,69.14,1.17,300,0.102
461,SF20%,600,0.69,0.2,69.14,1.17,300,0.095
462,SF20%,600,0.69,0.2,69.14,1.17,300,0.095
463,SF20%,400,0.69,0.2,77.42,0.83,300,0.068
464,SF20%,400,0.69,0.2,77.42,0.83,300,0.07
465,SF20%,400,0.69,0.2,77.42,0.83,300,0.07
466,SF20%,400,0.69,0.2,77.42,0.83,300,0.073
467,SF20%,400,0.69,0.2,77.42,0.83,300,0.074
468,SF20%,400,0.69,0.2,77.42,0.83,300,0.078
469,MK10%,800,0.69,0.1,62.84,4.05,300,0.175
470,MK10%,800,0.69,0.1,62.84,4.05,300,0.181
471,MK10%,800,0.69,0.1,62.84,4.05,300,0.154
472,MK10%,800,0.69,0.1,62.84,4.05,300,0.172
473,MK10%,800,0.69,0.1,62.84,4.05,300,0.184
474,MK10%,800,0.69,0.1,62.84,4.05,300,0.188
475,MK10%,600,0.69,0.1,71.19,3.52,300,0.121
476,MK10%,600,0.69,0.1,71.19,3.52,300,0.114
477,MK10%,600,0.69,0.1,71.19,3.52,300,0.119
478,MK10%,600,0.69,0.1,71.19,3.52,300,0.116
479,MK10%,600,0.69,0.1,71.19,3.52,300,0.121
480,MK10%,600,0.69,0.1,71.19,3.52,300,0.126
481,MK10%,400,0.69,0.1,80,3.49,300,0.076
482,MK10%,400,0.69,0.1,80,3.49,300,0.074
483,MK10%,400,0.69,0.1,80,3.49,300,0.072
484,MK10%,400,0.69,0.1,80,3.49,300,0.075
485,MK10%,400,0.69,0.1,80,3.49,300,0.071
486,MK10%,400,0.69,0.1,80,3.49,300,0.071
487,MK20%,800,0.69,0.2,64.06,4,300,0.174
488,MK20%,800,0.69,0.2,64.06,4,300,0.182
489,MK20%,800,0.69,0.2,64.06,4,300,0.172
490,MK20%,800,0.69,0.2,64.06,4,300,0.181
491,MK20%,800,0.69,0.2,64.06,4,300,0.185
492,MK20%,800,0.69,0.2,64.06,4,300,0.176
493,MK20%,600,0.69,0.2,73.44,3.6,300,0.118
494,MK20%,600,0.69,0.2,73.44,3.6,300,0.123
495,MK20%,600,0.69,0.2,73.44,3.6,300,0.113
496,MK20%,600,0.69,0.2,73.44,3.6,300,0.122
497,MK20%,600,0.69,0.2,73.44,3.6,300,0.127
498,MK20%,600,0.69,0.2,73.44,3.6,300,0.126
499,MK20%,400,0.69,0.2,83.08,3.54,300,0.072
500,MK20%,400,0.69,0.2,83.08,3.54,300,0.075
501,MK20%,400,0.69,0.2,83.08,3.54,300,0.072
502,MK20%,400,0.69,0.2,83.08,3.54,300,0.075
503,MK20%,400,0.69,0.2,83.08,3.54,300,0.074
504,MK20%,400,0.69,0.2,83.08,3.54,300,0.075